#kx 	ky 	kz 	real 	imag 	intensity
0.800000 0.800000 2.800000 -6.840464 7.636979 105.115387
0.800000 0.800000 2.900000 -11.952734 -6.170635 180.944580
0.800000 0.800000 3.000000 5.644772 -11.969955 175.143280
0.800000 0.800000 3.100000 13.662886 4.869570 210.387146
0.800000 0.800000 3.200000 1.405366 14.057734 199.594925
0.800000 0.900000 2.800000 -5.459539 -11.445812 160.813187
0.800000 0.900000 2.900000 -0.930172 -10.163268 104.157234
0.800000 0.900000 3.000000 -0.968773 -8.703882 76.696091
0.800000 0.900000 3.100000 1.357054 -13.324817 179.392334
0.800000 0.900000 3.200000 12.510023 -4.402119 175.879318
0.800000 1.000000 2.800000 13.366531 1.627307 181.312286
0.800000 1.000000 2.900000 2.461424 3.537532 18.572741
0.800000 1.000000 3.000000 8.740066 -9.575974 168.088013
0.800000 1.000000 3.100000 28.569504 7.563973 873.430237
0.800000 1.000000 3.200000 -0.323442 31.121048 968.624268
0.800000 1.100000 2.800000 -5.200658 11.332376 155.469604
0.800000 1.100000 2.900000 -9.576134 0.633145 92.103210
0.800000 1.100000 3.000000 2.783362 3.060094 17.111282
0.800000 1.100000 3.100000 -12.972948 18.837891 523.163513
0.800000 1.100000 3.200000 -27.583866 -10.035397 861.578857
0.800000 1.200000 2.800000 -7.929786 1.415008 64.883759
0.800000 1.200000 2.900000 -5.051878 -6.250585 64.591278
0.800000 1.200000 3.000000 -5.296737 -5.371969 56.913475
0.800000 1.200000 3.100000 -2.475832 -17.669231 318.331482
0.800000 1.200000 3.200000 14.721772 -9.989820 316.527069
0.900000 0.800000 2.800000 -23.365503 -12.870152 711.587524
0.900000 0.800000 2.900000 6.027927 -14.385372 243.274841
0.900000 0.800000 3.000000 1.216064 -0.214508 1.524826
0.900000 0.800000 3.100000 8.609756 3.148869 84.043282
0.900000 0.800000 3.200000 -9.082634 15.420975 320.300690
0.900000 0.900000 2.800000 19.523758 -4.979839 405.975922
0.900000 0.900000 2.900000 -75.432846 102.989304 16296.911133
0.900000 0.900000 3.000000 -148.648346 -105.788513 33287.539062
0.900000 0.900000 3.100000 64.170425 -83.994263 11172.878906
0.900000 0.900000 3.200000 -17.691650 19.193541 681.386475
0.900000 1.000000 2.800000 -16.129684 21.229612 710.863159
0.900000 1.000000 2.900000 -179.139679 -107.442215 43634.855469
0.900000 1.000000 3.000000 120.768219 -257.906738 81100.843750
0.900000 1.000000 3.100000 147.378082 70.112175 26636.015625
0.900000 1.000000 3.200000 -36.365433 -18.442110 1662.556152
0.900000 1.100000 2.800000 -11.403371 -25.816252 796.515747
0.900000 1.100000 2.900000 58.903851 -122.538567 18485.363281
0.900000 1.100000 3.000000 169.149612 42.248978 30396.568359
0.900000 1.100000 3.100000 -19.473831 91.055946 8670.416016
0.900000 1.100000 3.200000 12.574600 -25.331129 799.786621
0.900000 1.200000 2.800000 20.228603 -0.943548 410.086670
0.900000 1.200000 2.900000 -2.135941 10.112591 106.826736
0.900000 1.200000 3.000000 8.227280 -12.939119 235.108948
0.900000 1.200000 3.100000 16.357136 10.976868 388.047485
0.900000 1.200000 3.200000 -1.517212 5.372047 31.160826
1.000000 0.800000 2.800000 10.654175 -19.483101 493.102661
1.000000 0.800000 2.900000 11.544159 10.921280 252.541962
1.000000 0.800000 3.000000 -1.704941 -3.650497 16.232956
1.000000 0.800000 3.100000 13.933945 14.760132 412.016296
1.000000 0.800000 3.200000 -18.676239 15.426086 586.766052
1.000000 0.900000 2.800000 -6.687445 16.531567 318.014618
1.000000 0.900000 2.900000 -179.949615 -106.264252 43673.953125
1.000000 0.900000 3.000000 122.460640 -262.944946 84136.656250
1.000000 0.900000 3.100000 144.009491 64.715942 24926.886719
1.000000 0.900000 3.200000 -27.526598 -27.832691 1532.372314
1.000000 1.000000 2.800000 -19.394270 -30.274342 1292.673462
1.000000 1.000000 2.900000 137.965530 -296.489166 106940.312500
1.000000 1.000000 3.000000 433.819214 119.769730 202543.890625
1.000000 1.000000 3.100000 -39.612186 246.795609 62477.199219
1.000000 1.000000 3.200000 28.125177 -22.751099 1308.638062
1.000000 1.100000 2.800000 36.331081 -12.083775 1465.965088
1.000000 1.100000 2.900000 195.917206 71.877998 43549.996094
1.000000 1.100000 3.000000 -28.309311 278.820862 78542.484375
1.000000 1.100000 3.100000 -158.843018 17.618340 25541.509766
1.000000 1.100000 3.200000 -0.248001 10.831718 117.387634
1.000000 1.200000 2.800000 5.366314 28.080254 817.297974
1.000000 1.200000 2.900000 -19.645477 -0.902861 386.759918
1.000000 1.200000 3.000000 10.402822 5.946472 143.579254
1.000000 1.200000 3.100000 -25.435280 4.639767 668.480957
1.000000 1.200000 3.200000 7.530888 -25.392696 701.503296
1.100000 0.800000 2.800000 -2.896833 8.353191 78.167450
1.100000 0.800000 2.900000 -12.980202 3.852226 183.325287
1.100000 0.800000 3.000000 -2.638580 -3.555168 19.601326
1.100000 0.800000 3.100000 -7.668058 10.124893 161.312592
1.100000 0.800000 3.200000 -17.649509 -5.564903 342.473328
1.100000 0.900000 2.800000 -3.531107 -23.764877 577.238098
1.100000 0.900000 2.900000 61.891823 -121.478104 18587.527344
1.100000 0.900000 3.000000 175.946991 47.957367 33257.253906
1.100000 0.900000 3.100000 -18.014866 92.363037 8855.465820
1.100000 0.900000 3.200000 19.055382 -17.868557 682.392944
1.100000 1.000000 2.800000 33.957970 -1.312971 1154.867554
1.100000 1.000000 2.900000 192.643982 76.219925 42921.179688
1.100000 1.000000 3.000000 -36.499554 285.174927 82656.960938
1.100000 1.000000 3.100000 -157.057709 13.088158 24838.423828
1.100000 1.000000 3.200000 2.037197 24.160435 587.876770
1.100000 1.100000 2.800000 3.131151 23.364784 555.717285
1.100000 1.100000 2.900000 -35.597885 126.773781 17338.800781
1.100000 1.100000 3.000000 -184.822968 4.864586 34183.195312
1.100000 1.100000 3.100000 -39.791054 -105.541222 12722.277344
1.100000 1.100000 3.200000 -9.374603 -19.732210 477.243286
1.100000 1.200000 2.800000 -6.584656 10.884176 161.822983
1.100000 1.200000 2.900000 -3.713128 -6.707726 58.780899
1.100000 1.200000 3.000000 -5.652473 1.242386 33.493980
1.100000 1.200000 3.100000 5.704775 -25.975883 707.290955
1.100000 1.200000 3.200000 32.329773 10.405809 1153.495117
1.200000 0.800000 2.800000 -11.098668 -15.829416 373.750854
1.200000 0.800000 2.900000 0.789571 -10.961834 120.785225
1.200000 0.800000 3.000000 1.920090 -10.153357 106.777397
1.200000 0.800000 3.100000 8.165308 -1.977605 70.583183
1.200000 0.800000 3.200000 0.047362 2.402491 5.774204
1.200000 0.900000 2.800000 26.510534 5.058858 728.400452
1.200000 0.900000 2.900000 -3.494865 14.002312 208.278809
1.200000 0.900000 3.000000 3.236593 -6.607291 54.131828
1.200000 0.900000 3.100000 10.607862 6.335131 152.660614
1.200000 0.900000 3.200000 1.911189 8.358832 73.522720
1.200000 1.000000 2.800000 -18.186443 26.793013 1048.612305
1.200000 1.000000 2.900000 -25.690020 -11.667232 796.101440
1.200000 1.000000 3.000000 3.773324 -6.756482 59.888023
1.200000 1.000000 3.100000 -9.157446 7.396568 138.568039
1.200000 1.000000 3.200000 -11.865069 -6.549849 183.680405
1.200000 1.100000 2.800000 -10.371014 -13.388457 286.808716
1.200000 1.100000 2.900000 6.877808 -15.333282 282.413757
1.200000 1.100000 3.000000 2.923677 -3.939639 24.068642
1.200000 1.100000 3.100000 2.531868 -14.877971 227.764374
1.200000 1.100000 3.200000 15.465492 -5.343108 267.730255
1.200000 1.200000 2.800000 -6.383241 10.237259 145.547226
1.200000 1.200000 2.900000 -9.272120 -0.863944 86.718597
1.200000 1.200000 3.000000 -0.550232 -10.143976 103.203011
1.200000 1.200000 3.100000 14.903025 4.070892 238.672302
1.200000 1.200000 3.200000 -7.675548 14.114614 258.136383
