#kx 	ky 	kz 	real 	imag 	intensity
0.800000 2.800000 0.800000 5.016918 -5.834069 59.205833
0.800000 2.800000 0.900000 -2.097429 -4.218881 22.198162
0.800000 2.800000 1.000000 6.678297 -11.711515 181.759247
0.800000 2.800000 1.100000 12.231792 1.691536 152.478043
0.800000 2.800000 1.200000 4.564698 6.565782 63.945961
0.800000 2.900000 0.800000 6.010122 -10.791338 152.574539
0.800000 2.900000 0.900000 12.856570 -9.278397 251.380035
0.800000 2.900000 1.000000 17.500652 -0.106066 306.284088
0.800000 2.900000 1.100000 9.938717 5.120530 124.997925
0.800000 2.900000 1.200000 9.979168 7.011827 148.749512
0.800000 3.000000 0.800000 20.421431 5.174187 443.807037
0.800000 3.000000 0.900000 11.065378 15.957273 377.077148
0.800000 3.000000 1.000000 8.191954 12.283203 217.985184
0.800000 3.000000 1.100000 9.719393 23.367397 640.501892
0.800000 3.000000 1.200000 -14.410969 26.963526 934.707764
0.800000 3.100000 0.800000 -7.074952 16.519995 322.965149
0.800000 3.100000 0.900000 -9.218164 0.496494 85.221062
0.800000 3.100000 1.000000 4.202316 8.623112 92.017517
0.800000 3.100000 1.100000 -19.706993 18.448175 728.700745
0.800000 3.100000 1.200000 -24.449532 -15.135573 826.865173
0.800000 3.200000 0.800000 -8.718176 -5.683998 108.314423
0.800000 3.200000 0.900000 9.863151 -2.625629 104.175667
0.800000 3.200000 1.000000 -2.108898 14.650084 219.072403
0.800000 3.200000 1.100000 -11.632513 -6.533624 178.003601
0.800000 3.200000 1.200000 11.782498 -5.519923 169.296829
0.900000 2.800000 0.800000 1.526571 20.096249 406.189636
0.900000 2.800000 0.900000 -0.621365 3.725597 14.266170
0.900000 2.800000 1.000000 1.394157 6.331543 42.032112
0.900000 2.800000 1.100000 7.690403 1.943878 62.920963
0.900000 2.800000 1.200000 2.911066 18.895418 365.511139
0.900000 2.900000 0.800000 -6.680105 0.661673 45.061615
0.900000 2.900000 0.900000 -74.630028 98.597321 15291.072266
0.900000 2.900000 1.000000 -160.255859 -94.998840 34706.718750
0.900000 2.900000 1.100000 55.804512 -95.288101 12193.965820
0.900000 2.900000 1.200000 -13.701969 18.904461 545.122559
0.900000 3.000000 0.800000 -3.994644 7.537916 72.777359
0.900000 3.000000 0.900000 -164.553284 -90.386932 35247.582031
0.900000 3.000000 1.000000 108.777145 -251.918457 75295.375000
0.900000 3.000000 1.100000 152.701447 66.347740 27719.753906
0.900000 3.000000 1.200000 -35.519646 -8.603885 1335.672119
0.900000 3.100000 0.800000 -9.921282 -13.735616 287.098969
0.900000 3.100000 0.900000 48.662399 -108.104492 14054.610352
0.900000 3.100000 1.000000 155.598602 49.199825 26631.548828
0.900000 3.100000 1.100000 -38.089001 91.043747 9739.736328
0.900000 3.100000 1.200000 1.879726 -38.829342 1511.251099
0.900000 3.200000 0.800000 17.593575 -6.427626 350.848236
0.900000 3.200000 0.900000 1.274340 11.973938 144.999146
0.900000 3.200000 1.000000 -9.215469 -7.993443 148.819992
0.900000 3.200000 1.100000 8.565466 -18.429680 413.020325
0.900000 3.200000 1.200000 24.494551 -1.964310 603.841553
1.000000 2.800000 0.800000 -31.112003 12.123837 1114.944092
1.000000 2.800000 0.900000 -14.557892 -2.086395 216.285263
1.000000 2.800000 1.000000 -9.050438 -6.128448 119.468307
1.000000 2.800000 1.100000 10.273659 10.498154 215.759293
1.000000 2.800000 1.200000 -22.999632 21.808064 1004.574707
1.000000 2.900000 0.800000 -12.980734 -24.301716 759.072815
1.000000 2.900000 0.900000 -163.103088 -115.790710 40010.105469
1.000000 2.900000 1.000000 126.642159 -279.380066 94091.453125
1.000000 2.900000 1.100000 170.778870 62.227974 33037.742188
1.000000 2.900000 1.200000 -22.887745 -17.804405 840.845703
1.000000 3.000000 0.800000 9.779221 -13.809067 286.323486
1.000000 3.000000 0.900000 125.109253 -266.705933 86784.382812
1.000000 3.000000 1.000000 430.635803 119.826660 199805.609375
1.000000 3.000000 1.100000 -44.037670 271.609619 75711.109375
1.000000 3.000000 1.200000 2.392410 -20.105904 409.971008
1.000000 3.100000 0.800000 20.613911 0.014050 424.933502
1.000000 3.100000 0.900000 169.184570 56.985580 31870.773438
1.000000 3.100000 1.000000 -34.649475 258.719727 68136.484375
1.000000 3.100000 1.100000 -165.659973 -8.510834 27515.660156
1.000000 3.100000 1.200000 21.119194 -18.244766 778.891846
1.000000 3.200000 0.800000 7.520176 24.447451 654.230896
1.000000 3.200000 0.900000 -12.441864 -3.051434 164.111221
1.000000 3.200000 1.000000 17.858912 -5.854599 353.217072
1.000000 3.200000 1.100000 17.040878 3.700706 304.086761
1.000000 3.200000 1.200000 29.074272 20.158949 1251.696533
1.100000 2.800000 0.800000 -24.870270 -18.309114 953.754028
1.100000 2.800000 0.900000 1.221962 -19.440262 379.416962
1.100000 2.800000 1.000000 7.334747 -1.551327 56.205135
1.100000 2.800000 1.100000 -9.273859 12.332516 238.095398
1.100000 2.800000 1.200000 -22.857380 -9.848743 619.457581
1.100000 2.900000 0.800000 18.688223 -33.645359 1481.259766
1.100000 2.900000 0.900000 77.689438 -115.933922 19476.322266
1.100000 2.900000 1.000000 191.716949 56.577938 39956.453125
1.100000 2.900000 1.100000 -15.681709 110.072159 12361.795898
1.100000 2.900000 1.200000 17.091143 -12.924356 459.146118
1.100000 3.000000 0.800000 29.452438 9.559490 958.829956
1.100000 3.000000 0.900000 184.978561 69.393013 39032.457031
1.100000 3.000000 1.000000 -32.080307 290.175293 85230.851562
1.100000 3.000000 1.100000 -173.018219 15.007973 30160.542969
1.100000 3.000000 1.200000 -1.234695 10.005699 101.638489
1.100000 3.100000 0.800000 0.314155 19.523819 381.278198
1.100000 3.100000 0.900000 -23.012154 112.536545 13194.033203
1.100000 3.100000 1.000000 -167.159409 5.747246 27975.298828
1.100000 3.100000 1.100000 -21.567307 -106.332146 11771.673828
1.100000 3.100000 1.200000 15.210241 -3.514563 243.703583
1.100000 3.200000 0.800000 -12.945541 10.801342 284.256042
1.100000 3.200000 0.900000 4.143611 -5.017551 42.345337
1.100000 3.200000 1.000000 7.435074 17.277605 353.795959
1.100000 3.200000 1.100000 4.053036 12.372192 169.498245
1.100000 3.200000 1.200000 -1.478639 36.251785 1316.378296
1.200000 2.800000 0.800000 -6.599178 -14.124561 243.052399
1.200000 2.800000 0.900000 7.823948 -2.223650 66.158783
1.200000 2.800000 1.000000 -7.634270 5.389685 87.330772
1.200000 2.800000 1.100000 -8.793471 -6.814695 123.765213
1.200000 2.800000 1.200000 -3.522458 -8.167514 79.115990
1.200000 2.900000 0.800000 29.280724 -4.281166 875.689148
1.200000 2.900000 0.900000 8.800021 19.015862 439.043365
1.200000 2.900000 1.000000 0.164188 1.236357 1.555536
1.200000 2.900000 1.100000 9.681543 5.175653 120.519661
1.200000 2.900000 1.200000 2.680260 9.845472 104.117126
1.200000 3.000000 0.800000 4.505867 30.820454 970.203247
1.200000 3.000000 0.900000 -16.531416 11.309356 401.189240
1.200000 3.000000 1.000000 -3.139760 7.960094 73.221184
1.200000 3.000000 1.100000 -15.771622 13.566395 432.791138
1.200000 3.000000 1.200000 -17.413456 -4.941078 327.642700
1.200000 3.100000 0.800000 -15.283708 5.171185 260.332886
1.200000 3.100000 0.900000 -2.637884 -3.883944 22.043453
1.200000 3.100000 1.000000 -5.088363 4.740594 48.364670
1.200000 3.100000 1.100000 -8.158327 -7.183969 118.167725
1.200000 3.100000 1.200000 5.758766 -3.571033 45.915661
1.200000 3.200000 0.800000 -7.941847 0.026373 63.073635
1.200000 3.200000 0.900000 -5.819968 4.918813 58.066750
1.200000 3.200000 1.000000 -11.528219 1.738071 135.920731
1.200000 3.200000 1.100000 -5.625409 2.730438 39.100517
1.200000 3.200000 1.200000 -18.313515 4.455168 355.233337
