#kx 	ky 	kz 	real 	imag 	intensity
0.800000 0.800000 -1.200000 -2.078610 -4.329789 23.067692
0.800000 0.800000 -1.000000 -4.450752 3.632140 33.001633
0.800000 0.800000 -0.800000 0.469065 -2.499053 6.465288
0.800000 1.000000 -1.200000 4.048773 2.872535 24.644020
0.800000 1.000000 -1.000000 -3.081962 7.466493 65.247002
0.800000 1.000000 -0.800000 -7.725657 9.874431 157.190155
0.800000 1.200000 -1.200000 -1.705323 -7.183186 54.506283
0.800000 1.200000 -1.000000 3.744142 16.187130 276.041748
0.800000 1.200000 -0.800000 3.707288 -1.591596 16.277159
1.000000 0.800000 -1.200000 -23.048756 21.885250 1010.209290
1.000000 0.800000 -1.000000 3.975880 0.244904 15.867597
1.000000 0.800000 -0.800000 4.636669 0.743665 22.051739
1.000000 1.000000 -1.200000 15.498503 5.045986 265.665558
1.000000 1.000000 -1.000000 484.653870 26.057646 235568.375000
1.000000 1.000000 -0.800000 -11.123943 -0.653656 124.169388
1.000000 1.200000 -1.200000 -3.060247 1.547610 11.760210
1.000000 1.200000 -1.000000 -1.979057 0.960754 4.839717
1.000000 1.200000 -0.800000 23.393864 21.464724 1008.007202
1.200000 0.800000 -1.200000 -4.242486 -0.449368 18.200623
1.200000 0.800000 -1.000000 -7.814192 15.695406 307.407349
1.200000 0.800000 -0.800000 1.425887 -6.874630 49.293697
1.200000 1.000000 -1.200000 6.935129 13.813191 238.900269
1.200000 1.000000 -1.000000 3.905604 6.050601 51.863514
1.200000 1.000000 -0.800000 -6.140079 4.376988 56.858593
1.200000 1.200000 -1.200000 1.273634 -5.869885 36.077698
1.200000 1.200000 -1.000000 6.371395 8.420950 111.507065
1.200000 1.200000 -0.800000 0.128066 -1.062792 1.145928
